File: data/XRD_Air.xy
10.0000	151.0000
10.0741	160.0000
10.1482	153.0000
10.2223	162.0000
10.2964	147.0000
10.3705	171.0000
10.4446	172.0000
10.5187	152.0000
10.5928	166.0000
10.6669	168.0000
10.7410	148.0000
10.8151	141.0000
10.8892	127.0000
10.9633	164.0000
11.0374	132.0000
11.1115	154.0000
11.1856	156.0000
11.2597	157.0000
11.3338	142.0000
11.4079	154.0000
11.4820	156.0000
11.5561	143.0000
11.6302	137.0000
11.7043	137.0000
11.7784	130.0000
11.8525	146.0000
11.9266	133.0000
12.0007	145.0000
12.0748	116.0000
12.1489	136.0000
12.2230	112.0000
12.2971	140.0000
12.3712	131.0000
12.4453	118.0000
12.5194	140.0000
12.5935	113.0000
12.6676	122.0000
12.7417	132.0000
12.8158	126.0000
12.8899	120.0000
12.9640	125.0000
13.0381	124.0000
13.1122	138.0000
13.1863	122.0000
13.2604	108.0000
13.3345	123.0000
13.4086	129.0000
13.4827	112.0000
13.5568	125.0000
13.6309	108.0000
13.7050	96.0000
13.7791	102.0000
13.8532	111.0000
13.9273	131.0000
14.0014	116.0000
14.0755	103.0000
14.1496	113.0000
14.2237	112.0000
14.2978	97.0000
14.3719	111.0000
14.4460	102.0000
14.5201	133.0000
14.5942	110.0000
14.6683	127.0000
14.7424	120.0000
14.8165	113.0000
14.8906	134.0000
14.9647	113.0000
15.0388	103.0000
15.1129	98.0000
15.1870	97.0000
15.2611	94.0000
15.3352	108.0000
15.4093	129.0000
15.4834	118.0000
15.5575	100.0000
15.6316	93.0000
15.7057	115.0000
15.7798	115.0000
15.8539	112.0000
15.9280	107.0000
16.0021	113.0000
16.0762	119.0000
16.1503	89.0000
16.2244	104.0000
16.2985	94.0000
16.3726	114.0000
16.4467	102.0000
16.5208	90.0000
16.5949	93.0000
16.6690	95.0000
16.7431	118.0000
16.8172	102.0000
16.8913	102.0000
16.9654	90.0000
17.0395	95.0000
17.1136	106.0000
17.1877	102.0000
17.2618	104.0000
17.3359	90.0000
17.4100	101.0000
17.4841	93.0000
17.5582	96.0000
17.6323	98.0000
17.7064	97.0000
17.7805	109.0000
17.8546	94.0000
17.9287	101.0000
18.0028	128.0000
18.0769	107.0000
18.1510	107.0000
18.2251	107.0000
18.2992	128.0000
18.3733	145.0000
18.4474	244.0000
18.5215	1048
18.5956	4249
18.6697	2551
18.7438	822.0000
18.8179	383.0000
18.8920	222.0000
18.9661	127.0000
19.0402	135.0000
19.1143	109.0000
19.1884	95.0000
19.2625	139.0000
19.3366	92.0000
19.4107	104.0000
19.4848	92.0000
19.5589	104.0000
19.6330	91.0000
19.7071	70.0000
19.7812	88.0000
19.8553	93.0000
19.9294	92.0000
20.0035	98.0000
20.0776	71.0000
20.1517	97.0000
20.2258	67.0000
20.2999	81.0000
20.3740	116.0000
20.4481	171.0000
20.5222	419.0000
20.5963	406.0000
20.6704	260.0000
20.7445	192.0000
20.8186	188.0000
20.8927	190.0000
20.9668	162.0000
21.0409	169.0000
21.1150	188.0000
21.1891	174.0000
21.2632	211.0000
21.3373	214.0000
21.4114	196.0000
21.4855	200.0000
21.5596	180.0000
21.6337	197.0000
21.7078	164.0000
21.7819	157.0000
21.8560	124.0000
21.9301	120.0000
22.0042	124.0000
22.0783	113.0000
22.1524	120.0000
22.2265	97.0000
22.3006	96.0000
22.3747	101.0000
22.4488	115.0000
22.5229	127.0000
22.5970	107.0000
22.6711	115.0000
22.7452	96.0000
22.8193	112.0000
22.8934	107.0000
22.9675	109.0000
23.0416	88.0000
23.1157	90.0000
23.1898	114.0000
23.2640	138.0000
23.3381	103.0000
23.4122	109.0000
23.4863	116.0000
23.5604	108.0000
23.6345	107.0000
23.7086	122.0000
23.7827	98.0000
23.8568	115.0000
23.9309	124.0000
24.0050	129.0000
24.0791	123.0000
24.1532	110.0000
24.2273	102.0000
24.3014	101.0000
24.3755	101.0000
24.4496	93.0000
24.5237	112.0000
24.5978	114.0000
24.6719	85.0000
24.7460	79.0000
24.8201	82.0000
24.8942	81.0000
24.9683	94.0000
25.0424	83.0000
25.1165	76.0000
25.1906	89.0000
25.2647	73.0000
25.3388	102.0000
25.4129	79.0000
25.4870	70.0000
25.5611	67.0000
25.6352	88.0000
25.7093	82.0000
25.7834	71.0000
25.8575	77.0000
25.9316	81.0000
26.0057	86.0000
26.0798	71.0000
26.1539	73.0000
26.2280	84.0000
26.3021	76.0000
26.3762	56.0000
26.4503	77.0000
26.5244	65.0000
26.5985	73.0000
26.6726	75.0000
26.7467	73.0000
26.8208	89.0000
26.8949	95.0000
26.9690	88.0000
27.0431	84.0000
27.1172	79.0000
27.1913	80.0000
27.2654	78.0000
27.3395	76.0000
27.4136	78.0000
27.4877	72.0000
27.5618	68.0000
27.6359	77.0000
27.7100	73.0000
27.7841	91.0000
27.8582	76.0000
27.9323	68.0000
28.0064	82.0000
28.0805	73.0000
28.1546	70.0000
28.2287	74.0000
28.3028	75.0000
28.3769	67.0000
28.4510	59.0000
28.5251	88.0000
28.5992	87.0000
28.6733	73.0000
28.7474	68.0000
28.8215	70.0000
28.8956	65.0000
28.9697	75.0000
29.0438	62.0000
29.1179	73.0000
29.1920	66.0000
29.2661	43.0000
29.3402	60.0000
29.4143	67.0000
29.4884	73.0000
29.5625	62.0000
29.6366	53.0000
29.7107	54.0000
29.7848	59.0000
29.8589	49.0000
29.9330	65.0000
30.0071	53.0000
30.0812	61.0000
30.1553	47.0000
30.2294	67.0000
30.3035	62.0000
30.3776	54.0000
30.4517	64.0000
30.5258	79.0000
30.5999	74.0000
30.6740	72.0000
30.7481	65.0000
30.8222	81.0000
30.8963	65.0000
30.9704	52.0000
31.0445	47.0000
31.1186	42.0000
31.1927	61.0000
31.2668	71.0000
31.3409	76.0000
31.4150	57.0000
31.4891	66.0000
31.5632	49.0000
31.6373	68.0000
31.7114	62.0000
31.7855	67.0000
31.8596	52.0000
31.9337	52.0000
32.0078	65.0000
32.0819	66.0000
32.1560	58.0000
32.2301	62.0000
32.3042	62.0000
32.3783	55.0000
32.4524	58.0000
32.5265	57.0000
32.6006	74.0000
32.6747	54.0000
32.7488	69.0000
32.8229	83.0000
32.8970	67.0000
32.9711	46.0000
33.0452	65.0000
33.1193	59.0000
33.1934	60.0000
33.2675	47.0000
33.3416	54.0000
33.4157	62.0000
33.4898	51.0000
33.5639	68.0000
33.6380	59.0000
33.7121	48.0000
33.7862	59.0000
33.8603	61.0000
33.9344	47.0000
34.0085	56.0000
34.0826	49.0000
34.1567	61.0000
34.2308	54.0000
34.3049	47.0000
34.3790	68.0000
34.4531	48.0000
34.5272	62.0000
34.6013	59.0000
34.6754	59.0000
34.7495	62.0000
34.8236	56.0000
34.8977	64.0000
34.9718	67.0000
35.0459	64.0000
35.1200	63.0000
35.1941	54.0000
35.2682	52.0000
35.3423	52.0000
35.4164	40.0000
35.4905	50.0000
35.5646	66.0000
35.6387	79.0000
35.7128	92.0000
35.7869	116.0000
35.8610	164.0000
35.9351	328.0000
36.0092	424.0000
36.0833	497.0000
36.1574	405.0000
36.2315	360.0000
36.3056	330.0000
36.3797	676.0000
36.4538	844.0000
36.5279	650.0000
36.6020	264.0000
36.6761	143.0000
36.7502	107.0000
36.8243	83.0000
36.8984	53.0000
36.9725	52.0000
37.0466	50.0000
37.1207	64.0000
37.1948	59.0000
37.2689	63.0000
37.3430	54.0000
37.4171	76.0000
37.4912	68.0000
37.5653	79.0000
37.6394	134.0000
37.7135	131.0000
37.7876	111.0000
37.8617	80.0000
37.9358	97.0000
38.0099	90.0000
38.0840	118.0000
38.1581	103.0000
38.2322	64.0000
38.3063	65.0000
38.3804	65.0000
38.4545	66.0000
38.5286	42.0000
38.6027	71.0000
38.6768	53.0000
38.7509	55.0000
38.8250	46.0000
38.8991	52.0000
38.9732	58.0000
39.0473	42.0000
39.1214	46.0000
39.1955	43.0000
39.2696	69.0000
39.3437	59.0000
39.4178	44.0000
39.4919	36.0000
39.5660	39.0000
39.6401	49.0000
39.7142	50.0000
39.7883	41.0000
39.8624	48.0000
39.9365	48.0000
40.0106	48.0000
40.0847	51.0000
40.1588	25.0000
40.2329	40.0000
40.3070	39.0000
40.3811	45.0000
40.4552	48.0000
40.5293	39.0000
40.6034	42.0000
40.6775	42.0000
40.7516	42.0000
40.8257	39.0000
40.8998	48.0000
40.9739	48.0000
41.0480	52.0000
41.1221	41.0000
41.1962	50.0000
41.2703	37.0000
41.3444	45.0000
41.4185	57.0000
41.4926	51.0000
41.5667	56.0000
41.6408	63.0000
41.7149	72.0000
41.7890	70.0000
41.8631	50.0000
41.9372	54.0000
42.0113	51.0000
42.0854	64.0000
42.1595	55.0000
42.2336	61.0000
42.3077	40.0000
42.3818	58.0000
42.4559	56.0000
42.5300	60.0000
42.6041	56.0000
42.6782	68.0000
42.7523	56.0000
42.8264	71.0000
42.9005	52.0000
42.9746	76.0000
43.0487	56.0000
43.1228	63.0000
43.1969	74.0000
43.2710	89.0000
43.3451	96.0000
43.4192	125.0000
43.4933	152.0000
43.5674	199.0000
43.6415	293.0000
43.7156	418.0000
43.7897	534.0000
43.8638	612.0000
43.9379	822.0000
44.0120	1212
44.0861	2174
44.1602	2261
44.2343	1608
44.3084	942.0000
44.3825	401.0000
44.4566	217.0000
44.5307	126.0000
44.6048	94.0000
44.6789	78.0000
44.7530	67.0000
44.8271	84.0000
44.9012	73.0000
44.9753	84.0000
45.0494	46.0000
45.1235	57.0000
45.1976	55.0000
45.2717	52.0000
45.3458	54.0000
45.4199	42.0000
45.4940	54.0000
45.5681	63.0000
45.6422	62.0000
45.7163	54.0000
45.7904	61.0000
45.8645	49.0000
45.9386	47.0000
46.0127	55.0000
46.0868	59.0000
46.1609	62.0000
46.2350	53.0000
46.3091	51.0000
46.3832	48.0000
46.4573	49.0000
46.5314	53.0000
46.6055	49.0000
46.6796	55.0000
46.7537	42.0000
46.8278	47.0000
46.9019	55.0000
46.9760	54.0000
47.0501	68.0000
47.1242	32.0000
47.1983	43.0000
47.2724	51.0000
47.3465	53.0000
47.4206	41.0000
47.4947	50.0000
47.5688	67.0000
47.6429	51.0000
47.7170	68.0000
47.7911	88.0000
47.8652	78.0000
47.9393	99.0000
48.0134	131.0000
48.0875	121.0000
48.1616	183.0000
48.2357	276.0000
48.3098	193.0000
48.3839	196.0000
48.4580	117.0000
48.5321	77.0000
48.6062	67.0000
48.6803	55.0000
48.7544	49.0000
48.8285	57.0000
48.9026	57.0000
48.9767	42.0000
49.0508	43.0000
49.1249	59.0000
49.1990	47.0000
49.2731	38.0000
49.3472	48.0000
49.4213	60.0000
49.4954	46.0000
49.5695	47.0000
49.6436	47.0000
49.7178	44.0000
49.7919	51.0000
49.8660	55.0000
49.9401	51.0000
50.0142	48.0000
50.0883	56.0000
50.1624	31.0000
50.2365	36.0000
50.3106	54.0000
50.3847	57.0000
50.4588	49.0000
50.5329	48.0000
50.6070	50.0000
50.6811	38.0000
50.7552	53.0000
50.8293	52.0000
50.9034	39.0000
50.9775	35.0000
51.0516	50.0000
51.1257	60.0000
51.1998	44.0000
51.2739	41.0000
51.3480	43.0000
51.4221	54.0000
51.4962	33.0000
51.5703	42.0000
51.6444	47.0000
51.7185	56.0000
51.7926	33.0000
51.8667	45.0000
51.9408	57.0000
52.0149	48.0000
52.0890	41.0000
52.1631	44.0000
52.2372	41.0000
52.3113	45.0000
52.3854	45.0000
52.4595	67.0000
52.5336	63.0000
52.6077	50.0000
52.6818	68.0000
52.7559	60.0000
52.8300	39.0000
52.9041	63.0000
52.9782	51.0000
53.0523	68.0000
53.1264	45.0000
53.2005	45.0000
53.2746	57.0000
53.3487	63.0000
53.4228	53.0000
53.4969	57.0000
53.5710	53.0000
53.6451	48.0000
53.7192	46.0000
53.7933	50.0000
53.8674	50.0000
53.9415	52.0000
54.0156	45.0000
54.0897	54.0000
54.1638	54.0000
54.2379	43.0000
54.3120	49.0000
54.3861	47.0000
54.4602	39.0000
54.5343	64.0000
54.6084	54.0000
54.6825	43.0000
54.7566	63.0000
54.8307	58.0000
54.9048	52.0000
54.9789	53.0000
55.0530	64.0000
55.1271	58.0000
55.2012	39.0000
55.2753	40.0000
55.3494	59.0000
55.4235	62.0000
55.4976	70.0000
55.5717	49.0000
55.6458	58.0000
55.7199	54.0000
55.7940	60.0000
55.8681	55.0000
55.9422	62.0000
56.0163	65.0000
56.0904	84.0000
56.1645	76.0000
56.2386	93.0000
56.3127	80.0000
56.3868	89.0000
56.4609	88.0000
56.5350	78.0000
56.6091	88.0000
56.6832	75.0000
56.7573	88.0000
56.8314	83.0000
56.9055	66.0000
56.9796	82.0000
57.0537	75.0000
57.1278	71.0000
57.2019	82.0000
57.2760	70.0000
57.3501	86.0000
57.4242	72.0000
57.4983	94.0000
57.5724	107.0000
57.6465	117.0000
57.7206	119.0000
57.7947	158.0000
57.8688	224.0000
57.9429	249.0000
58.0170	238.0000
58.0911	300.0000
58.1652	374.0000
58.2393	281.0000
58.3134	264.0000
58.3875	182.0000
58.4616	107.0000
58.5357	101.0000
58.6098	96.0000
58.6839	82.0000
58.7580	76.0000
58.8321	49.0000
58.9062	67.0000
58.9803	65.0000
59.0544	65.0000
59.1285	64.0000
59.2026	79.0000
59.2767	68.0000
59.3508	62.0000
59.4249	74.0000
59.4990	72.0000
59.5731	61.0000
59.6472	64.0000
59.7213	55.0000
59.7954	60.0000
59.8695	66.0000
59.9436	53.0000
60.0177	68.0000
60.0918	62.0000
60.1659	58.0000
60.2400	62.0000
60.3141	54.0000
60.3882	57.0000
60.4623	44.0000
60.5364	64.0000
60.6105	59.0000
60.6846	62.0000
60.7587	58.0000
60.8328	52.0000
60.9069	70.0000
60.9810	57.0000
61.0551	56.0000
61.1292	72.0000
61.2033	59.0000
61.2774	52.0000
61.3515	68.0000
61.4256	62.0000
61.4997	62.0000
61.5738	72.0000
61.6479	54.0000
61.7220	49.0000
61.7961	76.0000
61.8702	56.0000
61.9443	56.0000
62.0184	66.0000
62.0925	52.0000
62.1666	66.0000
62.2407	69.0000
62.3148	65.0000
62.3889	66.0000
62.4630	75.0000
62.5371	63.0000
62.6112	57.0000
62.6853	71.0000
62.7594	68.0000
62.8335	59.0000
62.9076	61.0000
62.9817	69.0000
63.0558	82.0000
63.1299	71.0000
63.2040	76.0000
63.2781	92.0000
63.3522	117.0000
63.4263	149.0000
63.5004	213.0000
63.5745	266.0000
63.6486	319.0000
63.7227	448.0000
63.7968	550.0000
63.8709	556.0000
63.9450	466.0000
64.0191	424.0000
64.0932	266.0000
64.1673	197.0000
64.2414	251.0000
64.3155	345.0000
64.3896	501.0000
64.4637	384.0000
64.5378	329.0000
64.6119	284.0000
64.6860	208.0000
64.7601	124.0000
64.8342	109.0000
64.9083	77.0000
64.9824	77.0000
65.0565	73.0000
65.1306	72.0000
65.2047	68.0000
65.2788	66.0000
65.3529	59.0000
65.4270	63.0000
65.5011	74.0000
65.5752	54.0000
65.6493	58.0000
65.7234	61.0000
65.7975	71.0000
65.8716	72.0000
65.9457	77.0000
66.0198	52.0000
66.0939	62.0000
66.1680	79.0000
66.2421	62.0000
66.3162	43.0000
66.3903	57.0000
66.4644	83.0000
66.5385	69.0000
66.6126	78.0000
66.6867	90.0000
66.7608	101.0000
66.8349	120.0000
66.9090	131.0000
66.9831	107.0000
67.0572	101.0000
67.1313	108.0000
67.2054	80.0000
67.2795	105.0000
67.3536	100.0000
67.4277	107.0000
67.5018	121.0000
67.5759	175.0000
67.6500	185.0000
67.7241	249.0000
67.7982	200.0000
67.8723	161.0000
67.9464	112.0000
68.0205	95.0000
68.0946	67.0000
68.1687	81.0000
68.2428	66.0000
68.3169	53.0000
68.3910	53.0000
68.4651	65.0000
68.5392	55.0000
68.6133	63.0000
68.6874	56.0000
68.7615	47.0000
68.8356	55.0000
68.9097	61.0000
68.9838	61.0000
69.0579	63.0000
69.1320	65.0000
69.2061	55.0000
69.2802	38.0000
69.3543	66.0000
69.4284	50.0000
69.5025	55.0000
69.5766	54.0000
69.6507	56.0000
69.7248	59.0000
69.7989	53.0000
69.8730	51.0000
69.9471	59.0000
70.0212	49.0000
70.0953	45.0000
70.1694	49.0000
70.2435	62.0000
70.3176	61.0000
70.3917	41.0000
70.4658	50.0000
70.5399	61.0000
70.6140	57.0000
70.6881	62.0000
70.7622	54.0000
70.8363	64.0000
70.9104	56.0000
70.9845	46.0000
71.0586	50.0000
71.1327	49.0000
71.2068	50.0000
71.2809	47.0000
71.3550	55.0000
71.4291	62.0000
71.5032	57.0000
71.5773	55.0000
71.6514	46.0000
71.7255	50.0000
71.7996	55.0000
71.8737	54.0000
71.9478	65.0000
72.0219	54.0000
72.0960	39.0000
72.1701	45.0000
72.2442	39.0000
72.3183	47.0000
72.3924	48.0000
72.4665	61.0000
72.5406	50.0000
72.6147	55.0000
72.6888	47.0000
72.7629	49.0000
72.8370	39.0000
72.9111	46.0000
72.9852	36.0000
73.0593	39.0000
73.1334	46.0000
73.2075	49.0000
73.2816	42.0000
73.3557	52.0000
73.4298	46.0000
73.5039	50.0000
73.5780	46.0000
73.6521	49.0000
73.7262	43.0000
73.8003	58.0000
73.8744	47.0000
73.9485	43.0000
74.0226	47.0000
74.0967	38.0000
74.1708	47.0000
74.2449	48.0000
74.3190	56.0000
74.3931	51.0000
74.4672	45.0000
74.5413	57.0000
74.6154	47.0000
74.6895	40.0000
74.7636	45.0000
74.8377	49.0000
74.9118	45.0000
74.9859	42.0000
75.0600	53.0000
75.1341	52.0000
75.2082	50.0000
75.2823	62.0000
75.3564	68.0000
75.4305	55.0000
75.5046	70.0000
75.5787	49.0000
75.6528	60.0000
75.7269	49.0000
75.8010	54.0000
75.8751	61.0000
75.9492	58.0000
76.0233	46.0000
76.0974	60.0000
76.1716	89.0000
76.2457	81.0000
76.3198	92.0000
76.3939	81.0000
76.4680	83.0000
76.5421	95.0000
76.6162	87.0000
76.6903	69.0000
76.7644	73.0000
76.8385	61.0000
76.9126	60.0000
76.9867	91.0000
77.0608	61.0000
77.1349	76.0000
77.2090	77.0000
77.2831	76.0000
77.3572	62.0000
77.4313	66.0000
77.5054	47.0000
77.5795	50.0000
77.6536	66.0000
77.7277	37.0000
77.8018	41.0000
77.8759	46.0000
77.9500	36.0000
78.0241	51.0000
78.0982	29.0000
78.1723	45.0000
78.2464	45.0000
78.3205	47.0000
78.3946	42.0000
78.4687	42.0000
78.5428	31.0000
78.6169	37.0000
78.6910	45.0000
78.7651	45.0000
78.8392	44.0000
78.9133	40.0000
78.9874	43.0000
79.0615	36.0000
79.1356	37.0000
79.2097	55.0000
79.2838	41.0000
79.3579	31.0000
79.4320	32.0000
79.5061	54.0000
79.5802	53.0000
79.6543	38.0000
79.7284	42.0000
79.8025	55.0000
79.8766	61.0000
79.9507	65.0000
79.9877	58.0000