File: data/XRD_Ar.xy
10.0000	171.0000
10.0741	165.0000
10.1482	162.0000
10.2223	163.0000
10.2964	179.0000
10.3705	182.0000
10.4446	188.0000
10.5187	185.0000
10.5928	163.0000
10.6669	161.0000
10.7410	156.0000
10.8151	141.0000
10.8892	163.0000
10.9633	147.0000
11.0374	157.0000
11.1115	155.0000
11.1856	144.0000
11.2597	160.0000
11.3338	144.0000
11.4079	169.0000
11.4820	178.0000
11.5561	160.0000
11.6302	156.0000
11.7043	135.0000
11.7784	125.0000
11.8525	154.0000
11.9266	126.0000
12.0007	167.0000
12.0748	137.0000
12.1489	172.0000
12.2230	124.0000
12.2971	172.0000
12.3712	164.0000
12.4453	148.0000
12.5194	165.0000
12.5935	158.0000
12.6676	126.0000
12.7417	136.0000
12.8158	163.0000
12.8899	148.0000
12.9640	136.0000
13.0381	162.0000
13.1122	136.0000
13.1863	129.0000
13.2604	140.0000
13.3345	138.0000
13.4086	140.0000
13.4827	129.0000
13.5568	150.0000
13.6309	156.0000
13.7050	133.0000
13.7791	153.0000
13.8532	127.0000
13.9273	124.0000
14.0014	138.0000
14.0755	136.0000
14.1496	128.0000
14.2237	131.0000
14.2978	150.0000
14.3719	134.0000
14.4460	120.0000
14.5201	147.0000
14.5942	140.0000
14.6683	125.0000
14.7424	140.0000
14.8165	123.0000
14.8906	146.0000
14.9647	146.0000
15.0388	132.0000
15.1129	127.0000
15.1870	152.0000
15.2611	141.0000
15.3352	133.0000
15.4093	145.0000
15.4834	143.0000
15.5575	133.0000
15.6316	116.0000
15.7057	160.0000
15.7798	136.0000
15.8539	135.0000
15.9280	129.0000
16.0021	135.0000
16.0762	142.0000
16.1503	147.0000
16.2244	145.0000
16.2985	137.0000
16.3726	153.0000
16.4467	149.0000
16.5208	163.0000
16.5949	169.0000
16.6690	173.0000
16.7431	139.0000
16.8172	169.0000
16.8913	171.0000
16.9654	167.0000
17.0395	170.0000
17.1136	168.0000
17.1877	170.0000
17.2618	165.0000
17.3359	162.0000
17.4100	206.0000
17.4841	155.0000
17.5582	147.0000
17.6323	177.0000
17.7064	177.0000
17.7805	192.0000
17.8546	174.0000
17.9287	184.0000
18.0028	187.0000
18.0769	189.0000
18.1510	177.0000
18.2251	155.0000
18.2992	199.0000
18.3733	160.0000
18.4474	168.0000
18.5215	191.0000
18.5956	177.0000
18.6697	168.0000
18.7438	164.0000
18.8179	182.0000
18.8920	202.0000
18.9661	189.0000
19.0402	189.0000
19.1143	191.0000
19.1884	202.0000
19.2625	191.0000
19.3366	197.0000
19.4107	176.0000
19.4848	184.0000
19.5589	185.0000
19.6330	211.0000
19.7071	204.0000
19.7812	194.0000
19.8553	185.0000
19.9294	196.0000
20.0035	200.0000
20.0776	171.0000
20.1517	198.0000
20.2258	195.0000
20.2999	179.0000
20.3740	196.0000
20.4481	186.0000
20.5222	203.0000
20.5963	205.0000
20.6704	165.0000
20.7445	209.0000
20.8186	207.0000
20.8927	232.0000
20.9668	194.0000
21.0409	190.0000
21.1150	164.0000
21.1891	185.0000
21.2632	198.0000
21.3373	185.0000
21.4114	165.0000
21.4855	199.0000
21.5596	207.0000
21.6337	166.0000
21.7078	181.0000
21.7819	176.0000
21.8560	193.0000
21.9301	156.0000
22.0042	175.0000
22.0783	169.0000
22.1524	193.0000
22.2265	187.0000
22.3006	172.0000
22.3747	172.0000
22.4488	189.0000
22.5229	183.0000
22.5970	164.0000
22.6711	178.0000
22.7452	182.0000
22.8193	180.0000
22.8934	156.0000
22.9675	163.0000
23.0416	192.0000
23.1157	170.0000
23.1898	165.0000
23.2640	170.0000
23.3381	173.0000
23.4122	156.0000
23.4863	162.0000
23.5604	153.0000
23.6345	172.0000
23.7086	173.0000
23.7827	156.0000
23.8568	160.0000
23.9309	152.0000
24.0050	127.0000
24.0791	172.0000
24.1532	162.0000
24.2273	169.0000
24.3014	172.0000
24.3755	150.0000
24.4496	166.0000
24.5237	142.0000
24.5978	152.0000
24.6719	164.0000
24.7460	156.0000
24.8201	169.0000
24.8942	146.0000
24.9683	162.0000
25.0424	152.0000
25.1165	159.0000
25.1906	138.0000
25.2647	144.0000
25.3388	152.0000
25.4129	156.0000
25.4870	160.0000
25.5611	157.0000
25.6352	133.0000
25.7093	122.0000
25.7834	151.0000
25.8575	159.0000
25.9316	150.0000
26.0057	147.0000
26.0798	139.0000
26.1539	150.0000
26.2280	141.0000
26.3021	129.0000
26.3762	137.0000
26.4503	119.0000
26.5244	143.0000
26.5985	127.0000
26.6726	139.0000
26.7467	127.0000
26.8208	143.0000
26.8949	132.0000
26.9690	150.0000
27.0431	128.0000
27.1172	124.0000
27.1913	130.0000
27.2654	137.0000
27.3395	115.0000
27.4136	109.0000
27.4877	107.0000
27.5618	113.0000
27.6359	130.0000
27.7100	128.0000
27.7841	116.0000
27.8582	130.0000
27.9323	135.0000
28.0064	102.0000
28.0805	113.0000
28.1546	114.0000
28.2287	104.0000
28.3028	135.0000
28.3769	108.0000
28.4510	126.0000
28.5251	119.0000
28.5992	135.0000
28.6733	125.0000
28.7474	114.0000
28.8215	124.0000
28.8956	118.0000
28.9697	104.0000
29.0438	133.0000
29.1179	117.0000
29.1920	94.0000
29.2661	105.0000
29.3402	102.0000
29.4143	125.0000
29.4884	128.0000
29.5625	104.0000
29.6366	130.0000
29.7107	98.0000
29.7848	102.0000
29.8589	102.0000
29.9330	100.0000
30.0071	100.0000
30.0812	107.0000
30.1553	106.0000
30.2294	107.0000
30.3035	102.0000
30.3776	91.0000
30.4517	107.0000
30.5258	110.0000
30.5999	103.0000
30.6740	100.0000
30.7481	97.0000
30.8222	121.0000
30.8963	95.0000
30.9704	100.0000
31.0445	95.0000
31.1186	99.0000
31.1927	76.0000
31.2668	102.0000
31.3409	85.0000
31.4150	79.0000
31.4891	80.0000
31.5632	96.0000
31.6373	102.0000
31.7114	89.0000
31.7855	99.0000
31.8596	85.0000
31.9337	101.0000
32.0078	84.0000
32.0819	100.0000
32.1560	78.0000
32.2301	93.0000
32.3042	69.0000
32.3783	86.0000
32.4524	81.0000
32.5265	80.0000
32.6006	85.0000
32.6747	83.0000
32.7488	96.0000
32.8229	84.0000
32.8970	104.0000
32.9711	73.0000
33.0452	103.0000
33.1193	104.0000
33.1934	72.0000
33.2675	73.0000
33.3416	90.0000
33.4157	75.0000
33.4898	106.0000
33.5639	109.0000
33.6380	113.0000
33.7121	140.0000
33.7862	112.0000
33.8603	81.0000
33.9344	83.0000
34.0085	73.0000
34.0826	81.0000
34.1567	70.0000
34.2308	65.0000
34.3049	85.0000
34.3790	76.0000
34.4531	66.0000
34.5272	78.0000
34.6013	79.0000
34.6754	76.0000
34.7495	83.0000
34.8236	61.0000
34.8977	74.0000
34.9718	81.0000
35.0459	64.0000
35.1200	71.0000
35.1941	69.0000
35.2682	80.0000
35.3423	77.0000
35.4164	67.0000
35.4905	84.0000
35.5646	71.0000
35.6387	69.0000
35.7128	74.0000
35.7869	74.0000
35.8610	83.0000
35.9351	96.0000
36.0092	78.0000
36.0833	77.0000
36.1574	86.0000
36.2315	88.0000
36.3056	64.0000
36.3797	79.0000
36.4538	74.0000
36.5279	79.0000
36.6020	77.0000
36.6761	79.0000
36.7502	81.0000
36.8243	80.0000
36.8984	82.0000
36.9725	73.0000
37.0466	76.0000
37.1207	86.0000
37.1948	75.0000
37.2689	115.0000
37.3430	152.0000
37.4171	413.0000
37.4912	332.0000
37.5653	255.0000
37.6394	116.0000
37.7135	82.0000
37.7876	96.0000
37.8617	77.0000
37.9358	75.0000
38.0099	72.0000
38.0840	75.0000
38.1581	93.0000
38.2322	69.0000
38.3063	77.0000
38.3804	78.0000
38.4545	77.0000
38.5286	76.0000
38.6027	71.0000
38.6768	73.0000
38.7509	89.0000
38.8250	67.0000
38.8991	78.0000
38.9732	81.0000
39.0473	62.0000
39.1214	81.0000
39.1955	65.0000
39.2696	63.0000
39.3437	82.0000
39.4178	75.0000
39.4919	67.0000
39.5660	59.0000
39.6401	66.0000
39.7142	74.0000
39.7883	59.0000
39.8624	78.0000
39.9365	77.0000
40.0106	70.0000
40.0847	69.0000
40.1588	58.0000
40.2329	73.0000
40.3070	76.0000
40.3811	81.0000
40.4552	54.0000
40.5293	68.0000
40.6034	76.0000
40.6775	67.0000
40.7516	69.0000
40.8257	63.0000
40.8998	78.0000
40.9739	69.0000
41.0480	65.0000
41.1221	67.0000
41.1962	60.0000
41.2703	66.0000
41.3444	69.0000
41.4185	54.0000
41.4926	76.0000
41.5667	96.0000
41.6408	66.0000
41.7149	55.0000
41.7890	74.0000
41.8631	77.0000
41.9372	84.0000
42.0113	63.0000
42.0854	79.0000
42.1595	84.0000
42.2336	89.0000
42.3077	75.0000
42.3818	81.0000
42.4559	77.0000
42.5300	88.0000
42.6041	76.0000
42.6782	86.0000
42.7523	98.0000
42.8264	77.0000
42.9005	97.0000
42.9746	79.0000
43.0487	114.0000
43.1228	145.0000
43.1969	185.0000
43.2710	290.0000
43.3451	581.0000
43.4192	1654
43.4933	3003
43.5674	1991
43.6415	1225
43.7156	532.0000
43.7897	302.0000
43.8638	166.0000
43.9379	114.0000
44.0120	96.0000
44.0861	90.0000
44.1602	75.0000
44.2343	84.0000
44.3084	70.0000
44.3825	78.0000
44.4566	91.0000
44.5307	86.0000
44.6048	85.0000
44.6789	91.0000
44.7530	77.0000
44.8271	63.0000
44.9012	72.0000
44.9753	65.0000
45.0494	48.0000
45.1235	57.0000
45.1976	62.0000
45.2717	60.0000
45.3458	66.0000
45.4199	73.0000
45.4940	52.0000
45.5681	78.0000
45.6422	73.0000
45.7163	65.0000
45.7904	56.0000
45.8645	63.0000
45.9386	56.0000
46.0127	47.0000
46.0868	80.0000
46.1609	59.0000
46.2350	58.0000
46.3091	48.0000
46.3832	58.0000
46.4573	51.0000
46.5314	64.0000
46.6055	59.0000
46.6796	69.0000
46.7537	68.0000
46.8278	59.0000
46.9019	71.0000
46.9760	60.0000
47.0501	49.0000
47.1242	72.0000
47.1983	69.0000
47.2724	60.0000
47.3465	52.0000
47.4206	61.0000
47.4947	75.0000
47.5688	65.0000
47.6429	48.0000
47.7170	56.0000
47.7911	58.0000
47.8652	65.0000
47.9393	58.0000
48.0134	66.0000
48.0875	57.0000
48.1616	54.0000
48.2357	61.0000
48.3098	56.0000
48.3839	66.0000
48.4580	55.0000
48.5321	72.0000
48.6062	79.0000
48.6803	81.0000
48.7544	52.0000
48.8285	45.0000
48.9026	51.0000
48.9767	77.0000
49.0508	52.0000
49.1249	51.0000
49.1990	54.0000
49.2731	57.0000
49.3472	70.0000
49.4213	64.0000
49.4954	69.0000
49.5695	63.0000
49.6436	62.0000
49.7178	72.0000
49.7919	74.0000
49.8660	80.0000
49.9401	76.0000
50.0142	70.0000
50.0883	60.0000
50.1624	60.0000
50.2365	66.0000
50.3106	53.0000
50.3847	60.0000
50.4588	64.0000
50.5329	67.0000
50.6070	63.0000
50.6811	66.0000
50.7552	68.0000
50.8293	65.0000
50.9034	60.0000
50.9775	67.0000
51.0516	59.0000
51.1257	64.0000
51.1998	67.0000
51.2739	61.0000
51.3480	59.0000
51.4221	61.0000
51.4962	72.0000
51.5703	57.0000
51.6444	63.0000
51.7185	59.0000
51.7926	54.0000
51.8667	62.0000
51.9408	55.0000
52.0149	49.0000
52.0890	69.0000
52.1631	72.0000
52.2372	58.0000
52.3113	61.0000
52.3854	47.0000
52.4595	62.0000
52.5336	70.0000
52.6077	71.0000
52.6818	63.0000
52.7559	58.0000
52.8300	63.0000
52.9041	48.0000
52.9782	55.0000
53.0523	63.0000
53.1264	63.0000
53.2005	68.0000
53.2746	60.0000
53.3487	61.0000
53.4228	71.0000
53.4969	64.0000
53.5710	62.0000
53.6451	68.0000
53.7192	65.0000
53.7933	64.0000
53.8674	81.0000
53.9415	53.0000
54.0156	65.0000
54.0897	69.0000
54.1638	76.0000
54.2379	74.0000
54.3120	74.0000
54.3861	79.0000
54.4602	56.0000
54.5343	62.0000
54.6084	68.0000
54.6825	62.0000
54.7566	68.0000
54.8307	57.0000
54.9048	54.0000
54.9789	66.0000
55.0530	65.0000
55.1271	72.0000
55.2012	56.0000
55.2753	65.0000
55.3494	80.0000
55.4235	73.0000
55.4976	68.0000
55.5717	74.0000
55.6458	58.0000
55.7199	59.0000
55.7940	55.0000
55.8681	68.0000
55.9422	66.0000
56.0163	70.0000
56.0904	64.0000
56.1645	60.0000
56.2386	70.0000
56.3127	81.0000
56.3868	86.0000
56.4609	90.0000
56.5350	86.0000
56.6091	82.0000
56.6832	76.0000
56.7573	73.0000
56.8314	73.0000
56.9055	75.0000
56.9796	81.0000
57.0537	66.0000
57.1278	66.0000
57.2019	83.0000
57.2760	53.0000
57.3501	74.0000
57.4242	74.0000
57.4983	70.0000
57.5724	73.0000
57.6465	73.0000
57.7206	80.0000
57.7947	74.0000
57.8688	84.0000
57.9429	68.0000
58.0170	79.0000
58.0911	83.0000
58.1652	66.0000
58.2393	73.0000
58.3134	93.0000
58.3875	81.0000
58.4616	70.0000
58.5357	80.0000
58.6098	101.0000
58.6839	85.0000
58.7580	81.0000
58.8321	78.0000
58.9062	94.0000
58.9803	88.0000
59.0544	91.0000
59.1285	68.0000
59.2026	87.0000
59.2767	89.0000
59.3508	73.0000
59.4249	92.0000
59.4990	90.0000
59.5731	80.0000
59.6472	76.0000
59.7213	76.0000
59.7954	87.0000
59.8695	88.0000
59.9436	87.0000
60.0177	88.0000
60.0918	83.0000
60.1659	78.0000
60.2400	78.0000
60.3141	59.0000
60.3882	78.0000
60.4623	99.0000
60.5364	91.0000
60.6105	90.0000
60.6846	82.0000
60.7587	78.0000
60.8328	85.0000
60.9069	84.0000
60.9810	82.0000
61.0551	90.0000
61.1292	78.0000
61.2033	83.0000
61.2774	64.0000
61.3515	71.0000
61.4256	64.0000
61.4997	74.0000
61.5738	64.0000
61.6479	70.0000
61.7220	85.0000
61.7961	76.0000
61.8702	77.0000
61.9443	78.0000
62.0184	70.0000
62.0925	71.0000
62.1666	74.0000
62.2407	81.0000
62.3148	85.0000
62.3889	106.0000
62.4630	79.0000
62.5371	93.0000
62.6112	108.0000
62.6853	117.0000
62.7594	121.0000
62.8335	181.0000
62.9076	232.0000
62.9817	415.0000
63.0558	764.0000
63.1299	1420
63.2040	1077
63.2781	901.0000
63.3522	726.0000
63.4263	412.0000
63.5004	226.0000
63.5745	157.0000
63.6486	108.0000
63.7227	80.0000
63.7968	87.0000
63.8709	84.0000
63.9450	75.0000
64.0191	77.0000
64.0932	78.0000
64.1673	74.0000
64.2414	65.0000
64.3155	79.0000
64.3896	72.0000
64.4637	61.0000
64.5378	69.0000
64.6119	68.0000
64.6860	77.0000
64.7601	80.0000
64.8342	75.0000
64.9083	76.0000
64.9824	55.0000
65.0565	59.0000
65.1306	73.0000
65.2047	66.0000
65.2788	70.0000
65.3529	69.0000
65.4270	61.0000
65.5011	67.0000
65.5752	80.0000
65.6493	63.0000
65.7234	59.0000
65.7975	58.0000
65.8716	51.0000
65.9457	65.0000
66.0198	58.0000
66.0939	55.0000
66.1680	60.0000
66.2421	66.0000
66.3162	64.0000
66.3903	66.0000
66.4644	58.0000
66.5385	65.0000
66.6126	73.0000
66.6867	62.0000
66.7608	53.0000
66.8349	50.0000
66.9090	54.0000
66.9831	72.0000
67.0572	63.0000
67.1313	58.0000
67.2054	61.0000
67.2795	65.0000
67.3536	50.0000
67.4277	63.0000
67.5018	53.0000
67.5759	51.0000
67.6500	48.0000
67.7241	60.0000
67.7982	66.0000
67.8723	59.0000
67.9464	67.0000
68.0205	54.0000
68.0946	49.0000
68.1687	61.0000
68.2428	65.0000
68.3169	61.0000
68.3910	57.0000
68.4651	43.0000
68.5392	45.0000
68.6133	51.0000
68.6874	54.0000
68.7615	68.0000
68.8356	60.0000
68.9097	58.0000
68.9838	51.0000
69.0579	55.0000
69.1320	65.0000
69.2061	66.0000
69.2802	57.0000
69.3543	53.0000
69.4284	62.0000
69.5025	56.0000
69.5766	47.0000
69.6507	61.0000
69.7248	60.0000
69.7989	63.0000
69.8730	47.0000
69.9471	66.0000
70.0212	55.0000
70.0953	56.0000
70.1694	50.0000
70.2435	60.0000
70.3176	62.0000
70.3917	58.0000
70.4658	45.0000
70.5399	44.0000
70.6140	53.0000
70.6881	65.0000
70.7622	43.0000
70.8363	36.0000
70.9104	65.0000
70.9845	57.0000
71.0586	49.0000
71.1327	65.0000
71.2068	54.0000
71.2809	49.0000
71.3550	62.0000
71.4291	54.0000
71.5032	54.0000
71.5773	49.0000
71.6514	54.0000
71.7255	61.0000
71.7996	55.0000
71.8737	63.0000
71.9478	49.0000
72.0219	59.0000
72.0960	50.0000
72.1701	46.0000
72.2442	52.0000
72.3183	60.0000
72.3924	75.0000
72.4665	61.0000
72.5406	53.0000
72.6147	51.0000
72.6888	46.0000
72.7629	50.0000
72.8370	54.0000
72.9111	44.0000
72.9852	55.0000
73.0593	49.0000
73.1334	47.0000
73.2075	65.0000
73.2816	67.0000
73.3557	51.0000
73.4298	48.0000
73.5039	50.0000
73.5780	48.0000
73.6521	54.0000
73.7262	57.0000
73.8003	51.0000
73.8744	52.0000
73.9485	49.0000
74.0226	56.0000
74.0967	44.0000
74.1708	52.0000
74.2449	58.0000
74.3190	47.0000
74.3931	66.0000
74.4672	45.0000
74.5413	52.0000
74.6154	53.0000
74.6895	54.0000
74.7636	51.0000
74.8377	52.0000
74.9118	54.0000
74.9859	69.0000
75.0600	67.0000
75.1341	58.0000
75.2082	54.0000
75.2823	51.0000
75.3564	64.0000
75.4305	68.0000
75.5046	86.0000
75.5787	97.0000
75.6528	146.0000
75.7269	194.0000
75.8010	158.0000
75.8751	138.0000
75.9492	128.0000
76.0233	109.0000
76.0974	77.0000
76.1716	67.0000
76.2457	63.0000
76.3198	61.0000
76.3939	49.0000
76.4680	57.0000
76.5421	45.0000
76.6162	53.0000
76.6903	48.0000
76.7644	42.0000
76.8385	57.0000
76.9126	34.0000
76.9867	49.0000
77.0608	35.0000
77.1349	55.0000
77.2090	52.0000
77.2831	52.0000
77.3572	39.0000
77.4313	60.0000
77.5054	43.0000
77.5795	43.0000
77.6536	51.0000
77.7277	43.0000
77.8018	48.0000
77.8759	45.0000
77.9500	46.0000
78.0241	42.0000
78.0982	52.0000
78.1723	43.0000
78.2464	38.0000
78.3205	43.0000
78.3946	43.0000
78.4687	48.0000
78.5428	39.0000
78.6169	37.0000
78.6910	51.0000
78.7651	58.0000
78.8392	49.0000
78.9133	47.0000
78.9874	44.0000
79.0615	51.0000
79.1356	54.0000
79.2097	48.0000
79.2838	44.0000
79.3579	53.0000
79.4320	72.0000
79.5061	71.0000
79.5802	135.0000
79.6543	175.0000
79.7284	220.0000
79.8025	252.0000
79.8766	214.0000
79.9507	189.0000
79.9877	176.0000